{"resourceType":"Bundle","id":"tests-patient-not-ip-bundle","type":"transaction","entry":[{"resource":{"resourceType":"EpisodeOfCare","id":"patient-not-ip-pregnancy-episode","identifier":[{"system":"http://example.org/sampleepisodeofcare-identifier","value":"123"}],"status":"active","type":[{"coding":[{"system":"http://terminology.hl7.org/CodeSystem/episodeofcare-type","code":"hacc","display":"Home and Community Care"}]}],"diagnosis":[{"condition":{"reference":"Condition/patient-not-ip-pregnancy"},"role":{"coding":[{"system":"http://terminology.hl7.org/CodeSystem/diagnosis-role","code":"CC","display":"Chief complaint"}]},"rank":1}],"patient":{"reference":"Patient/patient-not-ip"},"period":{"start":"2020-05-22"}},"request":{"method":"PUT","url":"EpisodeOfCare/patient-not-ip-pregnancy-episode"}},{"resource":{"resourceType":"Patient","id":"patient-not-ip","extension":[{"url":"http://hl7.org/fhir/uv/ichom-breast-cancer/StructureDefinition/EducationLevel","valueCodeableConcept":{"coding":[{"system":"http://snomed.info/sct","code":"224295006","display":"Only received primary school education (finding)"}]}}],"name":[{"text":"Patient Not IP","family":"Not IP","given":["Patient"]}],"gender":"female","birthDate":"2004-07-01"},"request":{"method":"PUT","url":"Patient/patient-not-ip"}},{"resource":{"resourceType":"Condition","id":"patient-not-ip-pregnancy","clinicalStatus":{"coding":[{"system":"http://terminology.hl7.org/CodeSystem/condition-clinical","code":"active","display":"Active"}]},"verificationStatus":{"coding":[{"system":"http://terminology.hl7.org/CodeSystem/condition-ver-status","code":"confirmed","display":"Confirmed"}]},"category":[{"coding":[{"system":"http://terminology.hl7.org/CodeSystem/condition-category","code":"problem-list-item","display":"Problem List Item"}]}],"code":{"coding":[{"system":"http://snomed.info/sct","code":"77386006","display":"Pregnancy"}],"text":"Pregnancy"},"subject":{"reference":"Patient/patient-not-ip"},"onsetDateTime":"2020-05-22"},"request":{"method":"PUT","url":"Condition/patient-not-ip-pregnancy"}}]}