{"resourceType":"Bundle","id":"tests-patient-ghotala-bundle","type":"transaction","entry":[{"resource":{"resourceType":"Encounter","id":"encounter-patient-ghotala","status":"in-progress","class":{"system":"http://terminology.hl7.org/CodeSystem/v3-ActCode","code":"AMB","display":"ambulatory"},"type":[{"coding":[{"system":"http://smart.who.int/anc-test/CodeSystem/ANC.Care.Codes","code":"ANC.Contact","display":"Antenatal care contact"}],"text":"Antenatal care contact"}],"subject":{"reference":"Patient/patient-ghotala"},"episodeOfCare":[{"reference":"EpisodeOfCare/patient-ghotala-pregnancy-episode"}],"period":{"start":"2020-01-24"},"reasonCode":[{"coding":[{"system":"http://snomed.info/sct","code":"424441002","display":"Prenatal initial visit (regime/therapy)"}]}],"diagnosis":[{"condition":{"reference":"Condition/patient-ghotala-pregnancy"}}]},"request":{"method":"PUT","url":"Encounter/encounter-patient-ghotala"}},{"resource":{"resourceType":"Condition","id":"patient-ghotala-pregnancy","clinicalStatus":{"coding":[{"system":"http://terminology.hl7.org/CodeSystem/condition-clinical","code":"active","display":"Active"}]},"verificationStatus":{"coding":[{"system":"http://terminology.hl7.org/CodeSystem/condition-ver-status","code":"confirmed","display":"Confirmed"}]},"category":[{"coding":[{"system":"http://terminology.hl7.org/CodeSystem/condition-category","code":"problem-list-item","display":"Problem List Item"}]}],"code":{"coding":[{"system":"http://snomed.info/sct","code":"77386006","display":"Pregnancy"}],"text":"Pregnancy"},"subject":{"reference":"Patient/patient-ghotala"},"onsetDateTime":"2019-05-22"},"request":{"method":"PUT","url":"Condition/patient-ghotala-pregnancy"}},{"resource":{"resourceType":"EpisodeOfCare","id":"patient-ghotala-pregancy-episode","identifier":[{"system":"http://example.org/sampleepisodeofcare-identifier","value":"123"}],"status":"active","type":[{"coding":[{"system":"http://smart.who.int/anc-test/CodeSystem/ANC.Care.Codes","code":"ANC.Case","display":"Antenatal care case"},{"system":"http://terminology.hl7.org/CodeSystem/episodeofcare-type","code":"hacc","display":"Home and Community Care"}]}],"diagnosis":[{"condition":{"reference":"Condition/patient-ghotala-pregnancy"},"role":{"coding":[{"system":"http://terminology.hl7.org/CodeSystem/diagnosis-role","code":"CC","display":"Chief complaint"}]},"rank":1}],"patient":{"reference":"Patient/patient-ghotala"},"period":{"start":"2019-05-22"}},"request":{"method":"PUT","url":"EpisodeOfCare/patient-ghotala-pregancy-episode"}},{"resource":{"resourceType":"Patient","id":"patient-ghotala","extension":[{"url":"http://hl7.org/fhir/uv/ichom-breast-cancer/StructureDefinition/EducationLevel","valueCodeableConcept":{"coding":[{"system":"http://snomed.info/sct","code":"224295006","display":"Only received primary school education (finding)"}]}}],"name":[{"text":"Patient Ghotala","family":"Ghotala","given":["Patient"]}],"gender":"female","birthDate":"1994-07-01"},"request":{"method":"PUT","url":"Patient/patient-ghotala"}},{"resource":{"resourceType":"Observation","id":"patient-ghotala-end","status":"final","code":{"coding":[{"system":"http://smart.who.int/anc-test/CodeSystem/ANCCustomCodes","code":"ANC.End.1","display":"Reason for closing ANC record"}]},"subject":{"reference":"Patient/patient-ghotala"},"encounter":{"reference":"Encounter/encounter-patient-ghotala"},"effectiveDateTime":"2020-03-16T08:00:00.000+00:00","valueCodeableConcept":{"coding":[{"system":"http://smart.who.int/anc-test/CodeSystem/ANCCustomCodes","code":"ANC.End.2","display":"Live birth"},{"system":"http://hl7.org/fhir/sid/icd-10","code":"Z37.0","display":"Single live birth"},{"system":"http://id.who.int/icd/release/11/mms","code":"QA46.0","display":"Single live birth??Default applied"},{"system":"http://snomed.info/sct","code":"281050002","display":"Livebirth (finding)"},{"system":"http://loinc.org","code":"68499-3","display":"Date last live birth"}]}},"request":{"method":"PUT","url":"Observation/patient-ghotala-end"}}]}